#instrument=ARROW,
#ra=19.0764,
#dec=6.11139,
#alt=28.8383,
#az=120.517,
#tracking=true,
#startTime=1571751642,
#startTimeUTC=2019-10-22T13:40:42.783Z,
#user=atc5,
#fullScan=true,
#completeTime=1571751732,
#completeTimeUTC=2019-10-22T13:42:12.938Z,
frequency, intensity
-800000,2.026
-795000,1.982
-790000,1.978
-785000,1.963
-780000,1.973
-775000,1.956
-770000,1.943
-765000,1.943
-760000,1.953
-755000,1.953
-750000,1.951
-745000,1.953
-740000,1.941
-735000,1.934
-730000,1.936
-725000,1.951
-720000,1.96
-715000,1.956
-710000,1.943
-705000,1.956
-700000,1.953
-695000,1.953
-690000,1.941
-685000,1.951
-680000,1.943
-675000,1.941
-670000,1.946
-665000,1.973
-660000,1.956
-655000,1.953
-650000,1.963
-645000,1.973
-640000,1.973
-635000,1.973
-630000,1.973
-625000,1.98
-620000,1.982
-615000,1.982
-610000,1.97
-605000,1.953
-600000,1.963
-595000,1.973
-590000,1.982
-585000,1.992
-580000,2.012
-575000,2.007
-570000,1.997
-565000,2.007
-560000,2.012
-555000,2.009
-550000,2.009
-545000,2.026
-540000,2.021
-535000,2.021
-530000,2.041
-525000,2.021
-520000,2.017
-515000,2.019
-510000,2.041
-505000,2.041
-500000,2.041
-495000,2.041
-490000,2.029
-485000,2.031
-480000,2.051
-475000,2.07
-470000,2.1
-465000,2.1
-460000,2.1
-455000,2.08
-450000,2.07
-445000,2.061
-440000,2.078
-435000,2.095
-430000,2.1
-425000,2.107
-420000,2.109
-415000,2.109
-410000,2.109
-405000,2.112
-400000,2.112
-395000,2.126
-390000,2.109
-385000,2.119
-380000,2.136
-375000,2.144
-370000,2.158
-365000,2.148
-360000,2.185
-355000,2.227
-350000,2.234
-345000,2.227
-340000,2.246
-335000,2.246
-330000,2.275
-325000,2.275
-320000,2.283
-315000,2.295
-310000,2.305
-305000,2.314
-300000,2.324
-295000,2.314
-290000,2.334
-285000,2.314
-280000,2.341
-275000,2.327
-270000,2.341
-265000,2.334
-260000,2.349
-255000,2.349
-250000,2.361
-245000,2.383
-240000,2.373
-235000,2.385
-230000,2.393
-225000,2.41
-220000,2.402
-215000,2.393
-210000,2.422
-205000,2.439
-200000,2.478
-195000,2.493
-190000,2.534
-185000,2.546
-180000,2.585
-175000,2.588
-170000,2.607
-165000,2.588
-160000,2.595
-155000,2.595
-150000,2.617
-145000,2.629
-140000,2.622
-135000,2.61
-130000,2.605
-125000,2.588
-120000,2.585
-115000,2.578
-110000,2.578
-105000,2.549
-100000,2.549
-95000,2.559
-90000,2.556
-85000,2.588
-80000,2.6
-75000,2.598
-70000,2.617
-65000,2.627
-60000,2.651
-55000,2.71
-50000,2.717
-45000,2.727
-40000,2.725
-35000,2.734
-30000,2.695
-25000,2.644
-20000,2.583
-15000,2.544
-10000,2.49
-5000,2.441
0,2.412
5000,2.393
10000,2.373
15000,2.361
20000,2.307
25000,2.305
30000,2.314
35000,2.314
40000,2.31
45000,2.312
50000,2.324
55000,2.305
60000,2.324
65000,2.324
70000,2.305
75000,2.334
80000,2.341
85000,2.351
90000,2.354
95000,2.371
100000,2.368
105000,2.371
110000,2.383
115000,2.385
120000,2.402
125000,2.412
130000,2.429
135000,2.439
140000,2.432
145000,2.439
150000,2.422
155000,2.441
160000,2.432
165000,2.441
170000,2.422
175000,2.434
180000,2.439
185000,2.441
190000,2.458
195000,2.458
200000,2.451
205000,2.454
210000,2.451
215000,2.478
220000,2.48
225000,2.48
230000,2.488
235000,2.471
240000,2.488
245000,2.488
250000,2.498
255000,2.52
260000,2.507
265000,2.52
270000,2.507
275000,2.5
280000,2.49
285000,2.485
290000,2.451
295000,2.451
300000,2.463
305000,2.449
310000,2.446
315000,2.456
320000,2.449
325000,2.422
330000,2.429
335000,2.441
340000,2.441
345000,2.451
350000,2.488
355000,2.51
360000,2.49
365000,2.466
370000,2.432
375000,2.419
380000,2.39
385000,2.38
390000,2.378
395000,2.351
400000,2.363
405000,2.354
410000,2.354
415000,2.363
420000,2.373
425000,2.373
430000,2.363
435000,2.344
440000,2.354
445000,2.354
450000,2.354
455000,2.363
460000,2.363
465000,2.366
470000,2.361
475000,2.373
480000,2.373
485000,2.351
490000,2.349
495000,2.358
500000,2.371
505000,2.354
510000,2.361
515000,2.371
520000,2.383
525000,2.363
530000,2.351
535000,2.354
540000,2.354
545000,2.363
550000,2.356
555000,2.361
560000,2.346
565000,2.354
570000,2.363
575000,2.361
580000,2.373
585000,2.354
590000,2.354
595000,2.366
600000,2.363
605000,2.373
610000,2.383
615000,2.383
620000,2.393
625000,2.397
630000,2.39
635000,2.402
640000,2.39
645000,2.4
650000,2.38
655000,2.373
660000,2.383
665000,2.395
670000,2.393
675000,2.393
680000,2.393
685000,2.402
690000,2.393
695000,2.39
700000,2.395
705000,2.393
710000,2.412
715000,2.422
720000,2.432
725000,2.441
730000,2.437
735000,2.422
740000,2.41
745000,2.395
750000,2.388
755000,2.402
760000,2.422
765000,2.422
770000,2.422
775000,2.439
780000,2.432
785000,2.422
790000,2.41
795000,2.412
800000,2.41
805000,2.41
810000,2.432
815000,2.412
820000,2.412
825000,2.422
830000,2.441
835000,2.451
840000,2.471
845000,2.48
850000,2.49
855000,2.49
860000,2.485
865000,2.478
870000,2.473
875000,2.48
880000,2.478
885000,2.473
890000,2.468
895000,2.478
900000,2.495
905000,2.51
910000,2.5
915000,2.5
920000,2.49
925000,2.49
930000,2.478
935000,2.488
940000,2.468
945000,2.451
950000,2.458
955000,2.432
960000,2.451
965000,2.451
970000,2.48
975000,2.49
980000,2.49
985000,2.5
990000,2.505
995000,2.498
1000000,2.493
1005000,2.5
1010000,2.49
1015000,2.5
1020000,2.478
1025000,2.471
1030000,2.505
1035000,2.49
1040000,2.498
1045000,2.495
1050000,2.498
1055000,2.512
1060000,2.51
1065000,2.517
1070000,2.546
1075000,2.529
1080000,2.517
1085000,2.527
1090000,2.51
1095000,2.517
1100000,2.52
1105000,2.517
1110000,2.515
1115000,2.539
1120000,2.529
1125000,2.517
1130000,2.539
1135000,2.537
1140000,2.537
1145000,2.539
1150000,2.546
1155000,2.539
1160000,2.529
1165000,2.52
1170000,2.537
1175000,2.556
1180000,2.539
1185000,2.549
1190000,2.551
1195000,2.576
1200000,2.588