#instrument=ARROW,
#ra=17.9856,
#dec=66.585,
#alt=42.5239,
#az=328.067,
#tracking=true,
#startTime=1636062175,
#startTimeUTC=2021-11-04T21:42:55.355Z,
#user=cs9527,
#fullScan=true,
#completeTime=1636062275,
#completeTimeUTC=2021-11-04T21:44:35.801Z,
frequency, intensity
-800000,1.924
-795000,1.904
-790000,1.887
-785000,1.887
-780000,1.855
-775000,1.843
-770000,1.843
-765000,1.836
-760000,1.855
-755000,1.846
-750000,1.875
-745000,1.865
-740000,1.865
-735000,1.86
-730000,1.885
-725000,1.875
-720000,1.875
-715000,1.904
-710000,1.912
-705000,1.902
-700000,1.914
-695000,1.924
-690000,1.934
-685000,1.934
-680000,1.941
-675000,1.941
-670000,1.951
-665000,1.934
-660000,1.934
-655000,1.912
-650000,1.875
-645000,1.853
-640000,1.836
-635000,1.846
-630000,1.853
-625000,1.843
-620000,1.858
-615000,1.855
-610000,1.836
-605000,1.855
-600000,1.855
-595000,1.865
-590000,1.885
-585000,1.865
-580000,1.873
-575000,1.895
-570000,1.895
-565000,1.895
-560000,1.902
-555000,1.924
-550000,1.921
-545000,1.921
-540000,1.914
-535000,1.934
-530000,1.934
-525000,1.934
-520000,1.934
-515000,1.936
-510000,1.953
-505000,1.951
-500000,1.96
-495000,1.98
-490000,1.965
-485000,1.992
-480000,2.019
-475000,2.019
-470000,1.97
-465000,1.943
-460000,1.973
-455000,1.975
-450000,1.99
-445000,2.012
-440000,2.009
-435000,2
-430000,2.021
-425000,2.031
-420000,2.039
-415000,2.034
-410000,2.021
-405000,2.024
-400000,2.021
-395000,1.995
-390000,2.002
-385000,1.982
-380000,2.004
-375000,2.019
-370000,2.002
-365000,2.019
-360000,2.029
-355000,2.029
-350000,2.021
-345000,2.029
-340000,2.029
-335000,2.029
-330000,2.031
-325000,2.078
-320000,2.083
-315000,2.095
-310000,2.09
-305000,2.095
-300000,2.087
-295000,2.07
-290000,2.041
-285000,2.012
-280000,2.012
-275000,2.029
-270000,2.039
-265000,2.058
-260000,2.07
-255000,2.087
-250000,2.061
-245000,2.051
-240000,2.051
-235000,2.041
-230000,2.031
-225000,2.041
-220000,2.061
-215000,2.041
-210000,2.036
-205000,2.041
-200000,2.051
-195000,2.061
-190000,2.08
-185000,2.08
-180000,2.08
-175000,2.09
-170000,2.083
-165000,2.114
-160000,2.117
-155000,2.109
-150000,2.109
-145000,2.107
-140000,2.129
-135000,2.107
-130000,2.124
-125000,2.109
-120000,2.136
-115000,2.129
-110000,2.126
-105000,2.146
-100000,2.144
-95000,2.146
-90000,2.148
-85000,2.139
-80000,2.119
-75000,2.048
-70000,2.061
-65000,2.08
-60000,2.1
-55000,2.151
-50000,2.163
-45000,2.148
-40000,2.163
-35000,2.183
-30000,2.173
-25000,2.188
-20000,2.197
-15000,2.217
-10000,2.236
-5000,2.268
0,2.285
5000,2.268
10000,2.292
15000,2.244
20000,2.266
25000,2.285
30000,2.305
35000,2.305
40000,2.217
45000,2.256
50000,2.285
55000,2.305
60000,2.295
65000,2.295
70000,2.285
75000,2.266
80000,2.266
85000,2.227
90000,2.205
95000,2.207
100000,2.227
105000,2.244
110000,2.263
115000,2.283
120000,2.275
125000,2.266
130000,2.258
135000,2.256
140000,2.227
145000,2.214
150000,2.207
155000,2.227
160000,2.207
165000,2.175
170000,2.168
175000,2.166
180000,2.158
185000,2.183
190000,2.188
195000,2.168
200000,2.148
205000,2.122
210000,2.117
215000,2.1
220000,2.107
225000,2.109
230000,2.117
235000,2.129
240000,2.126
245000,2.119
250000,2.119
255000,2.109
260000,2.112
265000,2.109
270000,2.129
275000,2.148
280000,2.178
285000,2.188
290000,2.195
295000,2.178
300000,2.158
305000,2.129
310000,2.129
315000,2.117
320000,2.126
325000,2.148
330000,2.109
335000,2.129
340000,2.097
345000,2.126
350000,2.207
355000,2.295
360000,2.263
365000,2.246
370000,2.197
375000,2.207
380000,2.153
385000,2.087
390000,2.129
395000,2.168
400000,2.153
405000,2.134
410000,2.163
415000,2.192
420000,2.209
425000,2.231
430000,2.253
435000,2.234
440000,2.227
445000,2.217
450000,2.214
455000,2.227
460000,2.236
465000,2.285
470000,2.288
475000,2.275
480000,2.256
485000,2.246
490000,2.253
495000,2.246
500000,2.246
505000,2.263
510000,2.266
515000,2.288
520000,2.295
525000,2.266
530000,2.285
535000,2.285
540000,2.312
545000,2.295
550000,2.292
555000,2.302
560000,2.297
565000,2.329
570000,2.31
575000,2.332
580000,2.322
585000,2.324
590000,2.319
595000,2.312
600000,2.273
605000,2.266
610000,2.246
615000,2.236
620000,2.205
625000,2.217
630000,2.217
635000,2.2
640000,2.202
645000,2.212
650000,2.178
655000,2.197
660000,2.214
665000,2.266
670000,2.266
675000,2.263
680000,2.273
685000,2.246
690000,2.246
695000,2.236
700000,2.234
705000,2.234
710000,2.244
715000,2.256
720000,2.263
725000,2.253
730000,2.268
735000,2.295
740000,2.292
745000,2.266
750000,2.263
755000,2.273
760000,2.266
765000,2.263
770000,2.234
775000,2.236
780000,2.217
785000,2.217
790000,2.227
795000,2.246
800000,2.266
805000,2.249
810000,2.227
815000,2.224
820000,2.246
825000,2.253
830000,2.231
835000,2.244
840000,2.253
845000,2.246
850000,2.273
855000,2.285
860000,2.283
865000,2.253
870000,2.263
875000,2.253
880000,2.236
885000,2.209
890000,2.227
895000,2.236
900000,2.246
905000,2.224
910000,2.239
915000,2.236
920000,2.246
925000,2.256
930000,2.273
935000,2.275
940000,2.278
945000,2.295
950000,2.275
955000,2.295
960000,2.283
965000,2.305
970000,2.3
975000,2.312
980000,2.334
985000,2.305
990000,2.285
995000,2.319
1000000,2.332
1005000,2.344
1010000,2.336
1015000,2.324
1020000,2.324
1025000,2.314
1030000,2.295
1035000,2.292
1040000,2.275
1045000,2.251
1050000,2.209
1055000,2.266
1060000,2.305
1065000,2.324
1070000,2.334
1075000,2.349
1080000,2.363
1085000,2.363
1090000,2.354
1095000,2.354
1100000,2.341
1105000,2.354
1110000,2.334
1115000,2.334
1120000,2.344
1125000,2.346
1130000,2.354
1135000,2.349
1140000,2.344
1145000,2.295
1150000,2.278
1155000,2.273
1160000,2.322
1165000,2.334
1170000,2.334
1175000,2.363
1180000,2.39
1185000,2.383
1190000,2.395
1195000,2.419
1200000,2.429