#instrument=ARROW,
#ra=12.8628,
#dec=27.1139,
#alt=56.9878,
#az=127.75,
#tracking=true,
#startTime=1571734221,
#startTimeUTC=2019-10-22T08:50:21.853Z,
#user=atc5,
#fullScan=true,
#completeTime=1571734311,
#completeTimeUTC=2019-10-22T08:51:51.860Z,
frequency, intensity
-800000,2.061
-795000,2.041
-790000,2.019
-785000,2.019
-780000,2.017
-775000,1.992
-770000,1.982
-765000,1.978
-760000,1.973
-755000,1.96
-750000,1.965
-745000,1.978
-740000,1.968
-735000,1.978
-730000,1.973
-725000,1.973
-720000,1.97
-715000,1.973
-710000,1.973
-705000,1.992
-700000,1.982
-695000,1.99
-690000,1.992
-685000,1.997
-680000,2.007
-675000,2.009
-670000,2.012
-665000,2.007
-660000,2.031
-655000,2.034
-650000,2.014
-645000,2.026
-640000,2.021
-635000,2.021
-630000,2.012
-625000,2.041
-620000,2.048
-615000,2.051
-610000,2.039
-605000,2.048
-600000,2.051
-595000,2.051
-590000,2.051
-585000,2.061
-580000,2.051
-575000,2.041
-570000,2.031
-565000,2.041
-560000,2.051
-555000,2.051
-550000,2.061
-545000,2.068
-540000,2.051
-535000,2.058
-530000,2.051
-525000,2.061
-520000,2.078
-515000,2.068
-510000,2.068
-505000,2.068
-500000,2.068
-495000,2.058
-490000,2.058
-485000,2.063
-480000,2.068
-475000,2.097
-470000,2.102
-465000,2.097
-460000,2.087
-455000,2.1
-450000,2.1
-445000,2.09
-440000,2.117
-435000,2.107
-430000,2.1
-425000,2.097
-420000,2.08
-415000,2.07
-410000,2.087
-405000,2.09
-400000,2.1
-395000,2.109
-390000,2.126
-385000,2.139
-380000,2.148
-375000,2.144
-370000,2.148
-365000,2.119
-360000,2.126
-355000,2.139
-350000,2.119
-345000,2.109
-340000,2.129
-335000,2.136
-330000,2.144
-325000,2.129
-320000,2.122
-315000,2.146
-310000,2.156
-305000,2.139
-300000,2.153
-295000,2.148
-290000,2.156
-285000,2.158
-280000,2.158
-275000,2.151
-270000,2.156
-265000,2.175
-260000,2.158
-255000,2.185
-250000,2.185
-245000,2.178
-240000,2.173
-235000,2.188
-230000,2.195
-225000,2.188
-220000,2.188
-215000,2.185
-210000,2.178
-205000,2.168
-200000,2.158
-195000,2.158
-190000,2.168
-185000,2.188
-180000,2.217
-175000,2.222
-170000,2.217
-165000,2.19
-160000,2.207
-155000,2.205
-150000,2.207
-145000,2.188
-140000,2.195
-135000,2.192
-130000,2.197
-125000,2.197
-120000,2.205
-115000,2.209
-110000,2.217
-105000,2.214
-100000,2.214
-95000,2.207
-90000,2.217
-85000,2.217
-80000,2.212
-75000,2.217
-70000,2.207
-65000,2.207
-60000,2.224
-55000,2.236
-50000,2.236
-45000,2.236
-40000,2.227
-35000,2.236
-30000,2.236
-25000,2.227
-20000,2.234
-15000,2.253
-10000,2.246
-5000,2.246
0,2.246
5000,2.249
10000,2.275
15000,2.273
20000,2.275
25000,2.266
30000,2.256
35000,2.28
40000,2.273
45000,2.28
50000,2.275
55000,2.285
60000,2.295
65000,2.285
70000,2.285
75000,2.28
80000,2.29
85000,2.285
90000,2.305
95000,2.285
100000,2.285
105000,2.266
110000,2.266
115000,2.305
120000,2.305
125000,2.314
130000,2.314
135000,2.3
140000,2.305
145000,2.322
150000,2.31
155000,2.3
160000,2.314
165000,2.314
170000,2.305
175000,2.305
180000,2.283
185000,2.285
190000,2.295
195000,2.295
200000,2.305
205000,2.305
210000,2.312
215000,2.305
220000,2.312
225000,2.305
230000,2.312
235000,2.324
240000,2.305
245000,2.314
250000,2.312
255000,2.314
260000,2.283
265000,2.273
270000,2.285
275000,2.295
280000,2.305
285000,2.312
290000,2.336
295000,2.307
300000,2.319
305000,2.314
310000,2.322
315000,2.332
320000,2.358
325000,2.351
330000,2.356
335000,2.358
340000,2.351
345000,2.351
350000,2.39
355000,2.419
360000,2.39
365000,2.395
370000,2.371
375000,2.334
380000,2.341
385000,2.341
390000,2.354
395000,2.334
400000,2.317
405000,2.314
410000,2.312
415000,2.324
420000,2.324
425000,2.334
430000,2.334
435000,2.346
440000,2.339
445000,2.344
450000,2.346
455000,2.334
460000,2.332
465000,2.334
470000,2.351
475000,2.341
480000,2.334
485000,2.344
490000,2.334
495000,2.346
500000,2.332
505000,2.344
510000,2.363
515000,2.354
520000,2.351
525000,2.351
530000,2.354
535000,2.361
540000,2.361
545000,2.354
550000,2.363
555000,2.354
560000,2.344
565000,2.354
570000,2.349
575000,2.361
580000,2.354
585000,2.363
590000,2.344
595000,2.336
600000,2.354
605000,2.354
610000,2.371
615000,2.354
620000,2.349
625000,2.354
630000,2.334
635000,2.363
640000,2.373
645000,2.344
650000,2.361
655000,2.351
660000,2.361
665000,2.378
670000,2.393
675000,2.373
680000,2.393
685000,2.429
690000,2.424
695000,2.432
700000,2.424
705000,2.422
710000,2.417
715000,2.383
720000,2.38
725000,2.402
730000,2.383
735000,2.395
740000,2.402
745000,2.393
750000,2.383
755000,2.375
760000,2.383
765000,2.383
770000,2.373
775000,2.397
780000,2.39
785000,2.402
790000,2.432
795000,2.412
800000,2.412
805000,2.393
810000,2.388
815000,2.41
820000,2.412
825000,2.432
830000,2.427
835000,2.432
840000,2.444
845000,2.449
850000,2.461
855000,2.471
860000,2.449
865000,2.456
870000,2.454
875000,2.441
880000,2.441
885000,2.458
890000,2.471
895000,2.49
900000,2.498
905000,2.507
910000,2.522
915000,2.507
920000,2.502
925000,2.507
930000,2.5
935000,2.517
940000,2.507
945000,2.5
950000,2.515
955000,2.5
960000,2.5
965000,2.5
970000,2.5
975000,2.49
980000,2.49
985000,2.49
990000,2.495
995000,2.498
1000000,2.488
1005000,2.49
1010000,2.471
1015000,2.458
1020000,2.461
1025000,2.458
1030000,2.451
1035000,2.454
1040000,2.458
1045000,2.49
1050000,2.468
1055000,2.48
1060000,2.485
1065000,2.49
1070000,2.49
1075000,2.498
1080000,2.5
1085000,2.507
1090000,2.539
1095000,2.534
1100000,2.527
1105000,2.498
1110000,2.502
1115000,2.507
1120000,2.498
1125000,2.49
1130000,2.488
1135000,2.5
1140000,2.522
1145000,2.517
1150000,2.515
1155000,2.517
1160000,2.537
1165000,2.549
1170000,2.549
1175000,2.559
1180000,2.537
1185000,2.556
1190000,2.549
1195000,2.539
1200000,2.549